angle,intensity
5.0,0.0
5.055,0.0
5.111,0.0
5.166,0.0
5.221,0.0
5.277,0.0
5.332,0.0
5.388,0.0
5.443,0.0
5.498,0.0
5.554,0.0
5.609,0.0
5.664,0.0
5.72,0.0
5.775,0.0
5.831,0.0
5.886,0.0
5.941,0.0
5.997,0.0
6.052,0.0
6.107,0.0
6.163,0.0
6.218,0.0
6.274,0.0
6.329,0.0
6.384,0.0
6.44,0.0
6.495,0.0
6.55,0.0
6.606,0.0
6.661,0.0
6.717,0.0
6.772,0.0
6.827,0.0
6.883,0.0
6.938,0.0
6.993,0.0
7.049,0.0
7.104,0.0
7.16,0.0
7.215,0.0
7.27,0.0
7.326,0.0
7.381,0.0
7.436,0.0
7.492,0.0
7.547,0.0
7.603,0.0
7.658,0.0
7.713,0.0
7.769,0.0
7.824,0.0
7.879,0.0
7.935,0.0
7.99,0.0
8.046,0.0
8.101,0.0
8.156,0.0
8.212,0.0
8.267,0.0
8.322,0.0
8.378,0.0
8.433,0.0
8.489,0.0
8.544,0.0
8.599,0.0
8.655,0.0
8.71,0.0
8.765,0.0
8.821,0.0
8.876,0.0
8.932,0.0
8.987,0.0
9.042,0.0
9.098,0.0
9.153,0.0
9.208,0.0
9.264,0.0
9.319,0.0
9.375,0.0
9.43,0.0
9.485,0.0
9.541,0.0
9.596,0.0
9.651,0.0
9.707,0.0
9.762,0.0
9.818,0.0
9.873,0.0
9.928,0.0
9.984,0.0
10.039,0.0
10.094,0.0
10.15,0.0
10.205,0.0
10.261,0.0
10.316,0.0
10.371,0.0
10.427,0.0
10.482,0.0
10.537,0.0
10.593,0.0
10.648,0.0
10.704,0.0
10.759,0.0
10.814,0.0
10.87,0.0
10.925,0.0
10.98,0.0
11.036,0.0
11.091,0.0
11.147,0.0
11.202,0.0
11.257,0.0
11.313,0.0
11.368,0.0
11.423,0.0
11.479,0.0
11.534,0.0
11.59,0.0
11.645,0.0
11.7,0.0
11.756,0.0
11.811,0.0
11.866,0.0
11.922,0.0
11.977,0.0
12.033,0.0
12.088,0.0
12.143,0.0
12.199,0.0
12.254,0.0
12.309,0.0
12.365,0.0
12.42,0.0
12.476,0.0
12.531,0.0
12.586,0.0
12.642,0.0
12.697,0.0
12.752,0.0
12.808,0.0
12.863,0.0
12.919,0.0
12.974,0.0
13.029,0.0
13.085,0.0
13.14,0.0
13.195,0.0
13.251,0.0
13.306,0.0
13.362,0.0
13.417,0.0
13.472,0.0
13.528,0.0
13.583,0.0
13.638,0.0
13.694,0.0
13.749,0.0
13.805,0.0
13.86,0.0
13.915,0.0
13.971,0.0
14.026,0.0
14.081,0.0
14.137,0.0
14.192,0.0
14.248,0.0
14.303,0.0
14.358,0.0
14.414,0.0
14.469,0.0
14.524,0.0
14.58,0.0
14.635,0.0
14.691,0.0
14.746,0.0
14.801,0.0
14.857,0.0
14.912,0.003
14.967,0.017
15.023,0.09
15.078,0.395
15.134,1.448
15.189,4.463
15.244,11.562
15.3,25.176
15.355,46.089
15.41,70.945
15.466,91.84
15.521,100.0
15.577,91.6
15.632,70.595
15.687,45.785
15.743,25.01
15.798,11.577
15.853,4.757
15.909,2.286
15.964,2.257
16.02,3.551
16.075,5.434
16.13,7.144
16.186,7.933
16.241,7.427
16.296,5.86
16.352,3.897
16.407,2.185
16.463,1.033
16.518,0.412
16.573,0.138
16.629,0.039
16.684,0.009
16.739,0.002
16.795,0.0
16.85,0.0
16.906,0.0
16.961,0.0
17.016,0.0
17.072,0.0
17.127,0.0
17.182,0.0
17.238,0.0
17.293,0.0
17.349,0.0
17.404,0.0
17.459,0.0
17.515,0.0
17.57,0.0
17.625,0.002
17.681,0.011
17.736,0.039
17.792,0.12
17.847,0.312
17.902,0.689
17.958,1.288
18.013,2.035
18.068,2.723
18.124,3.085
18.179,2.96
18.235,2.405
18.29,1.656
18.345,0.966
18.401,0.478
18.456,0.2
18.511,0.071
18.567,0.021
18.622,0.005
18.678,0.001
18.733,0.0
18.788,0.0
18.844,0.0
18.899,0.0
18.954,0.0
19.01,0.0
19.065,0.0
19.121,0.0
19.176,0.0
19.231,0.0
19.287,0.0
19.342,0.0
19.397,0.0
19.453,0.0
19.508,0.0
19.564,0.0
19.619,0.0
19.674,0.0
19.73,0.0
19.785,0.0
19.84,0.0
19.896,0.0
19.951,0.0
20.007,0.0
20.062,0.0
20.117,0.0
20.173,0.0
20.228,0.0
20.283,0.0
20.339,0.0
20.394,0.0
20.45,0.0
20.505,0.0
20.56,0.0
20.616,0.0
20.671,0.0
20.726,0.0
20.782,0.0
20.837,0.0
20.893,0.0
20.948,0.0
21.003,0.0
21.059,0.0
21.114,0.0
21.169,0.0
21.225,0.0
21.28,0.0
21.336,0.0
21.391,0.0
21.446,0.0
21.502,0.0
21.557,0.0
21.612,0.0
21.668,0.0
21.723,0.0
21.779,0.0
21.834,0.0
21.889,0.0
21.945,0.0
22.0,0.0
22.055,0.0
22.111,0.0
22.166,0.0
22.221,0.0
22.277,0.0
22.332,0.0
22.388,0.0
22.443,0.0
22.498,0.0
22.554,0.0
22.609,0.0
22.664,0.0
22.72,0.0
22.775,0.0
22.831,0.0
22.886,0.0
22.941,0.0
22.997,0.0
23.052,0.0
23.107,0.0
23.163,0.0
23.218,0.0
23.274,0.0
23.329,0.0
23.384,0.0
23.44,0.0
23.495,0.0
23.55,0.0
23.606,0.0
23.661,0.0
23.717,0.0
23.772,0.0
23.827,0.0
23.883,0.0
23.938,0.0
23.993,0.0
24.049,0.0
24.104,0.0
24.16,0.0
24.215,0.0
24.27,0.0
24.326,0.0
24.381,0.0
24.436,0.0
24.492,0.0
24.547,0.0
24.603,0.0
24.658,0.001
24.713,0.004
24.769,0.019
24.824,0.081
24.879,0.301
24.935,0.964
24.99,2.651
25.046,6.26
25.101,12.704
25.156,22.167
25.212,33.274
25.267,42.99
25.322,47.834
25.378,45.859
25.433,37.898
25.489,27.006
25.544,16.598
25.599,8.801
25.655,4.035
25.71,1.632
25.765,0.691
25.821,0.585
25.876,1.074
25.932,2.166
25.987,3.879
26.042,6.004
26.098,8.015
26.153,9.231
26.208,9.177
26.264,7.878
26.319,5.843
26.375,3.745
26.43,2.074
26.485,0.993
26.541,0.411
26.596,0.147
26.651,0.045
26.707,0.012
26.762,0.003
26.818,0.001
26.873,0.0
26.928,0.0
26.984,0.0
27.039,0.0
27.094,0.0
27.15,0.0
27.205,0.0
27.261,0.0
27.316,0.0
27.371,0.0
27.427,0.0
27.482,0.0
27.537,0.0
27.593,0.0
27.648,0.0
27.704,0.0
27.759,0.0
27.814,0.0
27.87,0.0
27.925,0.0
27.98,0.0
28.036,0.0
28.091,0.0
28.147,0.0
28.202,0.0
28.257,0.0
28.313,0.0
28.368,0.0
28.423,0.0
28.479,0.0
28.534,0.0
28.59,0.0
28.645,0.0
28.7,0.0
28.756,0.0
28.811,0.0
28.866,0.0
28.922,0.0
28.977,0.0
29.033,0.0
29.088,0.0
29.143,0.0
29.199,0.0
29.254,0.0
29.309,0.002
29.365,0.008
29.42,0.024
29.476,0.067
29.531,0.163
29.586,0.346
29.642,0.658
29.697,1.163
29.752,2.043
29.808,3.805
29.863,7.528
29.919,14.893
29.974,27.568
30.029,45.839
30.085,67.173
30.14,86.092
30.195,96.245
30.251,93.789
30.306,79.674
30.362,59.018
30.417,38.13
30.472,21.494
30.528,10.59
30.583,4.607
30.638,1.879
30.694,0.921
30.749,0.791
30.805,0.989
30.86,1.27
30.915,1.536
30.971,1.818
31.026,2.283
31.081,3.17
31.137,4.629
31.192,6.537
31.248,8.426
31.303,9.65
31.358,9.715
31.414,8.565
31.469,6.606
31.524,4.456
31.58,2.628
31.635,1.355
31.691,0.611
31.746,0.24
31.801,0.083
31.857,0.025
31.912,0.006
31.967,0.002
32.023,0.0
32.078,0.001
32.134,0.005
32.189,0.019
32.244,0.066
32.3,0.199
32.355,0.519
32.41,1.181
32.466,2.341
32.521,4.045
32.577,6.1
32.632,8.036
32.687,9.257
32.743,9.334
32.798,8.244
32.853,6.381
32.909,4.331
32.964,2.578
33.02,1.345
33.075,0.615
33.13,0.247
33.186,0.086
33.241,0.027
33.296,0.007
33.352,0.002
33.407,0.0
33.463,0.0
33.518,0.0
33.573,0.0
33.629,0.0
33.684,0.0
33.739,0.0
33.795,0.0
33.85,0.0
33.906,0.0
33.961,0.0
34.016,0.0
34.072,0.0
34.127,0.0
34.182,0.0
34.238,0.0
34.293,0.0
34.349,0.0
34.404,0.0
34.459,0.0
34.515,0.0
34.57,0.0
34.625,0.0
34.681,0.0
34.736,0.0
34.792,0.0
34.847,0.0
34.902,0.0
34.958,0.0
35.013,0.0
35.068,0.0
35.124,0.0
35.179,0.0
35.235,0.0
35.29,0.0
35.345,0.0
35.401,0.0
35.456,0.0
35.511,0.0
35.567,0.0
35.622,0.0
35.678,0.0
35.733,0.0
35.788,0.0
35.844,0.0
35.899,0.0
35.954,0.0
36.01,0.0
36.065,0.001
36.121,0.002
36.176,0.01
36.231,0.036
36.287,0.114
36.342,0.314
36.397,0.759
36.453,1.609
36.508,2.992
36.564,4.885
36.619,7.014
36.674,8.867
36.73,9.879
36.785,9.713
36.84,8.435
36.896,6.474
36.951,4.394
37.007,2.637
37.062,1.399
37.117,0.656
37.173,0.271
37.228,0.099
37.283,0.032
37.339,0.009
37.394,0.002
37.45,0.0
37.505,0.0
37.56,0.0
37.616,0.0
37.671,0.0
37.726,0.0
37.782,0.0
37.837,0.0
37.893,0.0
37.948,0.0
38.003,0.0
38.059,0.0
38.114,0.0
38.169,0.0
38.225,0.0
38.28,0.0
38.336,0.0
38.391,0.0
38.446,0.0
38.502,0.0
38.557,0.0
38.612,0.0
38.668,0.0
38.723,0.0
38.778,0.0
38.834,0.0
38.889,0.001
38.945,0.006
39.0,0.02
39.055,0.063
39.111,0.177
39.166,0.433
39.221,0.934
39.277,1.774
39.332,2.974
39.388,4.401
39.443,5.759
39.498,6.673
39.554,6.856
39.609,6.253
39.664,5.068
39.72,3.652
39.775,2.343
39.831,1.346
39.886,0.719
39.941,0.435
39.997,0.461
40.052,0.816
40.107,1.565
40.163,2.763
40.218,4.371
40.274,6.217
40.329,8.064
40.384,9.756
40.44,11.337
40.495,12.998
40.55,14.84
40.606,16.637
40.661,17.835
40.717,17.853
40.772,16.508
40.827,14.26
40.883,12.108
40.938,11.197
40.993,12.325
41.049,15.54
41.104,19.999
41.16,24.202
41.215,26.576
41.27,26.161
41.326,23.022
41.381,18.15
41.436,12.938
41.492,8.596
41.547,5.785
41.603,4.576
41.658,4.602
41.713,5.276
41.769,5.987
41.824,6.27
41.879,5.915
41.935,4.996
41.99,3.771
42.046,2.543
42.101,1.531
42.156,0.823
42.212,0.394
42.267,0.168
42.322,0.064
42.378,0.021
42.433,0.006
42.489,0.002
42.544,0.0
42.599,0.0
42.655,0.0
42.71,0.0
42.765,0.0
42.821,0.0
42.876,0.0
42.932,0.0
42.987,0.0
43.042,0.0
43.098,0.0
43.153,0.0
43.208,0.0
43.264,0.0
43.319,0.0
43.375,0.0
43.43,0.0
43.485,0.0
43.541,0.0
43.596,0.0
43.651,0.0
43.707,0.0
43.762,0.0
43.818,0.0
43.873,0.0
43.928,0.0
43.984,0.0
44.039,0.002
44.094,0.006
44.15,0.017
44.205,0.046
44.261,0.11
44.316,0.23
44.371,0.427
44.427,0.706
44.482,1.039
44.537,1.364
44.593,1.604
44.648,1.705
44.704,1.671
44.759,1.585
44.814,1.587
44.87,1.828
44.925,2.401
44.98,3.276
45.036,4.278
45.091,5.132
45.147,5.565
45.202,5.428
45.257,4.758
45.313,3.748
45.368,2.654
45.423,1.689
45.479,0.965
45.534,0.495
45.59,0.227
45.645,0.093
45.7,0.034
45.756,0.011
45.811,0.003
45.866,0.001
45.922,0.0
45.977,0.0
46.033,0.0
46.088,0.001
46.143,0.004
46.199,0.013
46.254,0.033
46.309,0.078
46.365,0.16
46.42,0.294
46.476,0.481
46.531,0.702
46.586,0.916
46.642,1.07
46.697,1.122
46.752,1.058
46.808,0.898
46.863,0.687
46.919,0.473
46.974,0.294
47.029,0.165
47.085,0.085
47.14,0.047
47.195,0.051
47.251,0.122
47.306,0.333
47.362,0.836
47.417,1.875
47.472,3.746
47.528,6.667
47.583,10.593
47.638,15.049
47.694,19.152
47.749,21.88
47.805,22.494
47.86,20.869
47.915,17.544
47.971,13.467
48.026,9.594
48.081,6.562
48.137,4.569
48.192,3.45
48.248,2.871
48.303,2.504
48.358,2.145
48.414,1.727
48.469,1.278
48.524,0.861
48.58,0.525
48.635,0.291
48.691,0.147
48.746,0.071
48.801,0.037
48.857,0.026
48.912,0.024
48.967,0.025
49.023,0.026
49.078,0.024
49.134,0.02
49.189,0.016
49.244,0.011
49.3,0.007
49.355,0.004
49.41,0.002
49.466,0.002
49.521,0.004
49.577,0.008
49.632,0.017
49.687,0.032
49.743,0.053
49.798,0.078
49.853,0.105
49.909,0.127
49.964,0.138
50.02,0.135
50.075,0.12
50.13,0.096
50.186,0.07
50.241,0.046
50.296,0.028
50.352,0.015
50.407,0.007
50.463,0.003
50.518,0.001
50.573,0.0
50.629,0.0
50.684,0.0
50.739,0.0
50.795,0.0
50.85,0.0
50.906,0.0
50.961,0.0
51.016,0.0
51.072,0.0
51.127,0.0
51.182,0.0
51.238,0.0
51.293,0.001
51.349,0.006
51.404,0.02
51.459,0.065
51.515,0.183
51.57,0.461
51.625,1.04
51.681,2.099
51.736,3.793
51.792,6.147
51.847,8.95
51.902,11.731
51.958,13.874
52.013,14.838
52.068,14.384
52.124,12.662
52.179,10.134
52.235,7.378
52.29,4.884
52.345,2.937
52.401,1.601
52.456,0.789
52.511,0.351
52.567,0.141
52.622,0.051
52.678,0.016
52.733,0.005
52.788,0.001
52.844,0.0
52.899,0.0
52.954,0.0
53.01,0.0
53.065,0.0
53.121,0.0
53.176,0.001
53.231,0.003
53.287,0.008
53.342,0.023
53.397,0.058
53.453,0.131
53.508,0.265
53.564,0.483
53.619,0.789
53.674,1.161
53.73,1.541
53.785,1.849
53.84,2.011
53.896,1.988
53.951,1.789
54.007,1.469
54.062,1.105
54.117,0.768
54.173,0.51
54.228,0.36
54.283,0.328
54.339,0.409
54.394,0.59
54.45,0.847
54.505,1.141
54.56,1.426
54.616,1.657
54.671,1.8
54.726,1.839
54.782,1.77
54.837,1.608
54.893,1.376
54.948,1.106
55.003,0.833
55.059,0.584
55.114,0.381
55.169,0.229
55.225,0.127
55.28,0.066
55.336,0.035
55.391,0.026
55.446,0.041
55.502,0.09
55.557,0.194
55.612,0.384
55.668,0.687
55.723,1.107
55.778,1.612
55.834,2.125
55.889,2.545
55.945,2.783
56.0,2.802
56.055,2.633
56.111,2.365
56.166,2.106
56.221,1.938
56.277,1.889
56.332,1.932
56.388,2.015
56.443,2.094
56.498,2.166
56.554,2.266
56.609,2.433
56.664,2.678
56.72,2.954
56.775,3.17
56.831,3.231
56.886,3.079
56.941,2.721
56.997,2.219
57.052,1.665
57.107,1.148
57.163,0.725
57.218,0.418
57.274,0.22
57.329,0.105
57.384,0.046
57.44,0.018
57.495,0.007
57.55,0.004
57.606,0.006
57.661,0.015
57.717,0.036
57.772,0.078
57.827,0.152
57.883,0.267
57.938,0.423
57.993,0.607
58.049,0.789
58.104,0.934
58.16,1.007
58.215,0.993
58.27,0.898
58.326,0.745
58.381,0.568
58.436,0.398
58.492,0.256
58.547,0.151
58.603,0.082
58.658,0.042
58.713,0.023
58.769,0.018
58.824,0.023
58.879,0.035
58.935,0.051
58.99,0.069
59.046,0.086
59.101,0.097
59.156,0.1
59.212,0.095
59.267,0.083
59.322,0.066
59.378,0.049
59.433,0.033
59.489,0.021
59.544,0.012
59.599,0.006
59.655,0.003
59.71,0.001
59.765,0.001
59.821,0.001
59.876,0.002
59.932,0.004
59.987,0.009
60.042,0.018
60.098,0.033
60.153,0.055
60.208,0.082
60.264,0.111
60.319,0.137
60.375,0.154
60.43,0.159
60.485,0.15
60.541,0.131
60.596,0.106
60.651,0.08
60.707,0.058
60.762,0.043
60.818,0.037
60.873,0.039
60.928,0.047
60.984,0.058
61.039,0.07
61.094,0.079
61.15,0.087
61.205,0.099
61.261,0.13
61.316,0.202
61.371,0.348
61.427,0.602
61.482,0.988
61.537,1.506
61.593,2.122
61.648,2.768
61.704,3.362
61.759,3.826
61.814,4.103
61.87,4.164
61.925,4.008
61.98,3.658
62.036,3.164
62.091,2.588
62.147,2.001
62.202,1.464
62.257,1.027
62.313,0.726
62.368,0.593
62.423,0.657
62.479,0.945
62.534,1.463
62.59,2.179
62.645,3.003
62.7,3.792
62.756,4.385
62.811,4.655
62.866,4.55
62.922,4.106
62.977,3.427
63.033,2.647
63.088,1.892
63.143,1.248
63.199,0.758
63.254,0.423
63.309,0.216
63.365,0.1
63.42,0.042
63.476,0.016
63.531,0.006
63.586,0.002
63.642,0.002
63.697,0.004
63.752,0.01
63.808,0.025
63.863,0.061
63.919,0.139
63.974,0.298
64.029,0.594
64.085,1.094
64.14,1.855
64.195,2.887
64.251,4.12
64.306,5.391
64.362,6.473
64.417,7.15
64.472,7.284
64.528,6.863
64.583,5.994
64.638,4.859
64.694,3.658
64.749,2.555
64.805,1.659
64.86,1.014
64.915,0.616
64.971,0.433
65.026,0.428
65.081,0.562
65.137,0.795
65.192,1.079
65.248,1.358
65.303,1.572
65.358,1.677
65.414,1.652
65.469,1.507
65.524,1.277
65.58,1.005
65.635,0.735
65.691,0.498
65.746,0.312
65.801,0.18
65.857,0.095
65.912,0.046
65.967,0.02
66.023,0.008
66.078,0.003
66.134,0.001
66.189,0.0
66.244,0.0
66.3,0.0
66.355,0.0
66.41,0.0
66.466,0.0
66.521,0.0
66.577,0.001
66.632,0.004
66.687,0.011
66.743,0.027
66.798,0.058
66.853,0.116
66.909,0.209
66.964,0.342
67.02,0.512
67.075,0.699
67.13,0.874
67.186,1.005
67.241,1.066
67.296,1.046
67.352,0.954
67.407,0.811
67.463,0.642
67.518,0.474
67.573,0.327
67.629,0.213
67.684,0.135
67.739,0.091
67.795,0.076
67.85,0.085
67.906,0.117
67.961,0.177
68.016,0.276
68.072,0.431
68.127,0.656
68.182,0.952
68.238,1.297
68.293,1.646
68.349,1.938
68.404,2.117
68.459,2.149
68.515,2.033
68.57,1.797
68.625,1.491
68.681,1.171
68.736,0.889
68.792,0.691
68.847,0.608
68.902,0.654
68.958,0.822
69.013,1.079
69.068,1.373
69.124,1.638
69.179,1.816
69.235,1.868
69.29,1.788
69.345,1.595
69.401,1.33
69.456,1.037
69.511,0.754
69.567,0.51
69.622,0.321
69.678,0.188
69.733,0.105
69.788,0.062
69.844,0.048
69.899,0.056
69.954,0.082
70.01,0.125
70.065,0.185
70.121,0.259
70.176,0.343
70.231,0.43
70.287,0.508
70.342,0.569
70.397,0.61
70.453,0.638
70.508,0.67
70.564,0.727
70.619,0.828
70.674,0.977
70.73,1.158
70.785,1.338
70.84,1.477
70.896,1.541
70.951,1.515
71.007,1.402
71.062,1.225
71.117,1.014
71.173,0.796
71.228,0.594
71.283,0.425
71.339,0.292
71.394,0.196
71.45,0.129
71.505,0.084
71.56,0.055
71.616,0.035
71.671,0.022
71.726,0.013
71.782,0.007
71.837,0.004
71.893,0.002
71.948,0.001
72.003,0.001
72.059,0.002
72.114,0.004
72.169,0.006
72.225,0.009
72.28,0.012
72.336,0.014
72.391,0.016
72.446,0.018
72.502,0.018
72.557,0.018
72.612,0.02
72.668,0.029
72.723,0.054
72.779,0.113
72.834,0.23
72.889,0.44
72.945,0.773
73.0,1.245
73.055,1.839
73.111,2.495
73.166,3.116
73.221,3.596
73.277,3.85
73.332,3.841
73.388,3.586
73.443,3.142
73.498,2.588
73.554,2.003
73.609,1.454
73.664,0.986
73.72,0.623
73.775,0.366
73.831,0.202
73.886,0.109
73.941,0.067
73.997,0.058
74.052,0.071
74.107,0.098
74.163,0.133
74.218,0.168
74.274,0.197
74.329,0.215
74.384,0.219
74.44,0.209
74.495,0.187
74.55,0.158
74.606,0.126
74.661,0.096
74.717,0.069
74.772,0.049
74.827,0.035
74.883,0.025
74.938,0.02
74.993,0.017
75.049,0.015
75.104,0.013
75.16,0.011
75.215,0.009
75.27,0.007
75.326,0.006
75.381,0.004
75.436,0.004
75.492,0.005
75.547,0.008
75.603,0.014
75.658,0.022
75.713,0.032
75.769,0.042
75.824,0.053
75.879,0.061
75.935,0.065
75.99,0.065
76.046,0.061
76.101,0.054
76.156,0.045
76.212,0.036
76.267,0.027
76.322,0.019
76.378,0.013
76.433,0.009
76.489,0.009
76.544,0.014
76.599,0.027
76.655,0.052
76.71,0.092
76.765,0.152
76.821,0.229
76.876,0.319
76.932,0.409
76.987,0.485
77.042,0.534
77.098,0.549
77.153,0.53
77.208,0.482
77.264,0.414
77.319,0.336
77.375,0.257
77.43,0.185
77.485,0.125
77.541,0.08
77.596,0.048
77.651,0.03
77.707,0.023
77.762,0.026
77.818,0.035
77.873,0.051
77.928,0.071
77.984,0.091
78.039,0.109
78.094,0.122
78.15,0.127
78.205,0.124
78.261,0.116
78.316,0.104
78.371,0.092
78.427,0.082
78.482,0.076
78.537,0.075
78.593,0.078
78.648,0.084
78.704,0.089
78.759,0.092
78.814,0.09
78.87,0.085
78.925,0.077
78.98,0.068
79.036,0.062
79.091,0.062
79.147,0.072
79.202,0.096
79.257,0.139
79.313,0.204
79.368,0.299
79.423,0.43
79.479,0.613
79.534,0.86
79.59,1.181
79.645,1.566
79.7,1.983
79.756,2.378
79.811,2.691
79.866,2.874
79.922,2.906
79.977,2.797
80.033,2.578
80.088,2.287
80.143,1.961
80.199,1.627
80.254,1.309
80.309,1.022
80.365,0.779
80.42,0.581
80.476,0.428
80.531,0.31
80.586,0.221
80.642,0.153
80.697,0.102
80.752,0.065
80.808,0.038
80.863,0.021
80.919,0.011
80.974,0.005
81.029,0.003
81.085,0.004
81.14,0.007
81.195,0.017
81.251,0.037
81.306,0.075
81.362,0.139
81.417,0.238
81.472,0.374
81.528,0.543
81.583,0.728
81.638,0.905
81.694,1.049
81.749,1.14
81.805,1.172
81.86,1.152
81.915,1.094
81.971,1.016
82.026,0.931
82.081,0.847
82.137,0.768
82.192,0.694
82.248,0.627
82.303,0.569
82.358,0.518
82.414,0.474
82.469,0.435
82.524,0.396
82.58,0.355
82.635,0.311
82.691,0.267
82.746,0.222
82.801,0.181
82.857,0.143
82.912,0.11
82.967,0.081
83.023,0.057
83.078,0.038
83.134,0.025
83.189,0.016
83.244,0.013
83.3,0.014
83.355,0.019
83.41,0.028
83.466,0.04
83.521,0.055
83.577,0.07
83.632,0.085
83.687,0.098
83.743,0.108
83.798,0.114
83.853,0.117
83.909,0.117
83.964,0.114
84.02,0.111
84.075,0.11
84.13,0.114
84.186,0.125
84.241,0.145
84.296,0.171
84.352,0.199
84.407,0.225
84.463,0.243
84.518,0.25
84.573,0.246
84.629,0.233
84.684,0.214
84.739,0.193
84.795,0.173
84.85,0.155
84.906,0.142
84.961,0.135
85.016,0.134
85.072,0.14
85.127,0.157
85.182,0.186
85.238,0.23
85.293,0.286
85.349,0.351
85.404,0.414
85.459,0.466
85.515,0.497
85.57,0.502
85.625,0.483
85.681,0.444
85.736,0.391
85.792,0.329
85.847,0.266
85.902,0.204
85.958,0.148
86.013,0.102
86.068,0.065
86.124,0.039
86.179,0.021
86.235,0.011
86.29,0.005
86.345,0.002
86.401,0.001
86.456,0.001
86.511,0.001
86.567,0.002
86.622,0.006
86.678,0.012
86.733,0.024
86.788,0.046
86.844,0.082
86.899,0.138
86.954,0.216
87.01,0.317
87.065,0.433
87.121,0.554
87.176,0.661
87.231,0.741
87.287,0.78
87.342,0.778
87.397,0.738
87.453,0.671
87.508,0.587
87.564,0.498
87.619,0.416
87.674,0.354
87.73,0.327
87.785,0.346
87.84,0.419
87.896,0.545
87.951,0.713
88.007,0.897
88.062,1.067
88.117,1.196
88.173,1.262
88.228,1.261
88.283,1.2
88.339,1.092
88.394,0.954
88.45,0.8
88.505,0.642
88.56,0.491
88.616,0.356
88.671,0.242
88.726,0.155
88.782,0.092
88.837,0.051
88.893,0.028
88.948,0.016
89.003,0.012
89.059,0.015
89.114,0.022
89.169,0.034
89.225,0.05
89.28,0.067
89.336,0.085
89.391,0.1
89.446,0.111
89.502,0.117
89.557,0.116
89.612,0.111
89.668,0.103
89.723,0.092
89.779,0.08
89.834,0.067
89.889,0.054
89.945,0.041
90.0,0.031
