      Nadorite
Diffraction data computed using the structure from the paper listed below,
along with the cell parameters refined from single crystal data of R050525
      Giuseppetti G, Tadini C
      Periodico di Mineralogia 42 (1973) 335-345
      Riesame della struttura cristallina della nadorite: PbSbO2Cl
      Locality: Djebel Nador, Algeria

      CELL PARAMETERS:   5.5970 12.2600  5.4380   90.000   90.000   90.000
      SPACE GROUP: Cmcm      

           ATOM        X         Y         Z     OCCUPANCY  ISO(B)
            Pb     0.00000   0.38120   0.25000     1.000     1.122
            Sb     0.00000   0.07950   0.25000     1.000     1.022
            O      0.21830   0.00000   0.00000     1.000     0.769
            Cl     0.00000   0.74580   0.25000     1.000     1.840

            X-RAY WAVELENGTH:     1.541838
            BOUNDS ON TWO THETA:    5.0  90.0
            LIMITS IMPOSED ON THE INDICES ARE:  +/-  5 +/- 11 +/-  4
            MAX. ABS. INTENSITY / VOLUME**2:      252.1754989    
            The INTENSITY cut off value is   1.00

               2-THETA      INTENSITY    D-SPACING   H   K   L
                14.45         11.11        6.1300    0   2   0
                17.42          2.54        5.0915    1   1   0
                21.85         12.26        4.0680    0   2   1
                23.94         52.35        3.7167    1   1   1
                27.02         16.05        3.3005    1   3   0
                29.14         10.17        3.0650    0   4   0
                31.71        100.00        2.8215    1   3   1
                31.98         26.37        2.7985    2   0   0
                32.94         23.90        2.7190    0   0   2
                33.56          2.40        2.6701    0   4   1
                37.50          1.66        2.3984    1   1   2
                39.07          5.62        2.3056    2   2   1
                40.15          1.46        2.2459    1   5   0
                43.10          7.18        2.0986    1   3   2
                43.60          2.17        2.0759    1   5   1
                43.81         12.16        2.0666    2   4   0
                44.33          2.63        2.0433    0   6   0
                44.55         11.77        2.0340    0   4   2
                46.57         23.98        1.9501    2   0   2
                47.04          1.72        1.9318    2   4   1
                47.54          7.47        1.9128    0   6   1
                49.02          1.64        1.8584    2   2   2
                52.38          6.15        1.7467    3   1   1
                52.65          1.16        1.7383    0   2   3
                53.67          5.69        1.7077    1   1   3
                54.03          1.50        1.6972    3   3   0
                54.93          3.86        1.6715    1   7   0
                55.70          4.42        1.6503    2   6   0
                55.88          6.97        1.6453    2   4   2
                56.32          4.33        1.6335    0   6   2
                56.83         16.26        1.6201    3   3   1
                57.70          5.92        1.5977    1   7   1
                58.05         15.11        1.5888    1   3   3
                58.44          7.60        1.5791    2   6   1
                60.40          1.04        1.5325    0   8   0
                62.95          1.30        1.4766    2   2   3
                64.75          2.55        1.4397    3   3   2
                65.56          4.69        1.4240    1   7   2
                66.25          2.89        1.4107    2   6   2
                66.86          3.35        1.3993    4   0   0
                69.09          3.11        1.3595    0   0   4
                69.29          2.13        1.3560    0   6   3
                71.25          1.81        1.3236    1   9   0
                73.21          2.05        1.2928    3   1   3
                74.28          1.67        1.2769    3   7   0
                74.55          1.47        1.2729    4   4   0
                75.65          1.33        1.2570    1   3   4
                76.58          3.49        1.2442    4   0   2
                76.65          2.33        1.2431    3   7   1
                76.68          1.26        1.2427    0   4   4
                76.96          5.77        1.2389    3   3   3
                77.71          2.24        1.2288    1   7   3
                78.16          3.17        1.2228    2   0   4
                78.36          2.86        1.2203    2   6   3
                79.55          1.56        1.2050    2   8   2
                80.27          2.37        1.1960    0  10   1
                80.75          2.65        1.1901    1   9   2
                83.67          1.78        1.1558    3   7   2
                83.94          2.77        1.1528    4   4   2
                85.49          2.75        1.1358    2   4   4
                86.10          2.18        1.1293    4   6   1
                88.97          1.09        1.1002    3   9   0
                89.01          3.57        1.0998    2  10   1
                89.81          1.15        1.0921    5   1   1
================================================================================
       XPOW Copyright 1993 Bob Downs, Ranjini Swaminathan and Kurt Bartelmehs
  For reference, see Downs et al. (1993) American Mineralogist 78, 1104-1107.
